{
  "resourceType": "Bundle",
  "id": "SubscriptionBundleExample",
  "meta": {
    "profile": [
      "https://sequoiaproject.org/fhir/sphd-r4/StructureDefinition/CEQSubscriptionBundle"
    ]
  },
  "type": "transaction",
  "entry": [
    {
      "request": {
        "method": "POST",
        "url": "http://www.example.org/fhir/70cba71d-f5e4-4355-9a2f-365ae7b8c694"
      },
      "fullUrl": "http://www.example.org/fhir/Subscription/70cba71d-f5e4-4355-9a2f-365ae7b8c694",
      "resource": {
        "resourceType": "Subscription",
        "id": "CEQSubscriptionExample",
        "meta": {
          "profile": [
            "https://sequoiaproject.org/fhir/sphd-r4/StructureDefinition/CEQsubscription"
          ]
        },
        "criteria": "carequality",
        "extension": [
          {
            "url": "https://sequoiaproject.org/fhir/sphd-r4/StructureDefinition/CEQextension",
            "extension": [
              {
                "url": "subIdentifier",
                "valueString": "sub123"
              },
              {
                "url": "patientId",
                "valueIdentifier": {
                  "type": {
                    "coding": [
                      {
                        "code": "MR",
                        "system": "http://terminology.hl7.org/CodeSystem/v2-0203"
                      }
                    ]
                  },
                  "system": "urn:oid:1.2.36.146.595.217.0.1",
                  "value": "MRN123"
                }
              },
              {
                "url": "subscriber",
                "valueReference": {
                  "reference": "Practitioner/DrDavidAnydoc"
                }
              },
              {
                "url": "subscriptionTopic",
                "valueReference": {
                  "reference": "Basic/CEQTopicExample"
                }
              }
            ]
          }
        ],
        "channel": {
          "type": "rest-hook",
          "endpoint": "http://www.example.org/fhir/subscription/sub123"
        },
        "status": "active",
        "contact": [
          {
            "system": "phone",
            "value": "212-877-3307 ext 5001"
          }
        ],
        "end": "2021-01-01T00:00:00Z",
        "reason": "Example"
      }
    },
    {
      "request": {
        "method": "POST",
        "url": "http://www.example.org/fhir/1adc15a2-bee5-4cfa-a6de-7ec2ce37dfe3"
      },
      "fullUrl": "http://www.example.org/fhir/Practitioner/1adc15a2-bee5-4cfa-a6de-7ec2ce37dfe3",
      "resource": {
        "resourceType": "Practitioner",
        "id": "DrDavidAnydoc",
        "meta": {
          "profile": [
            "http://hl7.org/fhir/us/core/StructureDefinition/us-core-practitioner"
          ]
        },
        "identifier": [
          {
            "system": "http://hl7.org/fhir/sid/us-npi",
            "value": "8274017284"
          }
        ],
        "name": [
          {
            "family": "Anydoc",
            "given": [
              "David"
            ],
            "suffix": [
              "MD"
            ]
          }
        ]
      }
    },
    {
      "request": {
        "method": "POST",
        "url": "http://www.example.org/fhir/0537166c-5db3-4b0e-97bd-1a59e6f3d080"
      },
      "fullUrl": "http://www.example.org/fhir/Basic/0537166c-5db3-4b0e-97bd-1a59e6f3d080",
      "resource": {
        "resourceType": "Basic",
        "id": "CEQTopicExample",
        "meta": {
          "profile": [
            "https://sequoiaproject.org/fhir/sphd-r4/StructureDefinition/CEQ-topic"
          ]
        },
        "code": {
          "coding": [
            {
              "code": "adminact",
              "system": "http://terminology.hl7.org/CodeSystem/basic-resource-type"
            }
          ]
        },
        "extension": [
          {
            "url": "https://sequoiaproject.org/fhir/sphd-r4/StructureDefinition/CEQEventCode",
            "valueCoding": {
              "code": "snradmit",
              "system": "https://sequoiaproject.org/fhir/sphd-r4/CodeSystem/CEQNotificationEvents"
            }
          }
        ]
      }
    }
  ]
}
